Folder: Machine_learning_approach_to_Iron_based_soft_magnetic_nanocrystalline_materials_design

File: database_curated.csv
Fe,Si,C,Al,B,P,Ga,Ge,Cu,Ag,Au,Zn,Ti,V,Cr,Zr,Nb,Mo,Hf,Ta,W,Ce,Pr,Gd,U,Annealing temperature (K),Annealing Time (s),Primary Crystallization Onset (K),Primary Crystallization Peak (K) ,Secondary Crystallization Peak (K), Longitudinal Annealing field, Transverse Annealing field,Ribbon Thickness (um) ,Coercivity (A/m),Curie Temperature (K),Core Loss (kW/m^3 @ 0.2T 100kHz),Electrical Resistivity (10^-6*ohm*m),Permeability @ 1kHz,Magnetostriction (10^-6),Magnetic Saturation (T),Grain Diameter (nm),Reference DOI
72.5,13.5,0,0,9,0,0,1,1,0,0,0,0,0,0,0,3,0,0,0,0,0,0,0,0,928,3600,,,,0,0,25,4644.94,,,,,,,,10.1002/1521-396X(200202)189:3<877::AID-PSSA877>3.0.CO;2-G
71.5,9.5,0,2,9,0,0,4,1,0,0,0,0,0,0,0,3,0,0,0,0,0,0,0,0,923,3600,,,,0,0,25,991.845,,,,,,,,10.1002/1521-396X(200202)189:3<877::AID-PSSA877>3.0.CO;2-G
71.5,7.5,0,2,9,0,0,6,1,0,0,0,0,0,0,0,3,0,0,0,0,0,0,0,0,723,3600,,,,0,0,25,1.56095,,,,,,,,10.1002/1521-396X(200202)189:3<877::AID-PSSA877>3.0.CO;2-G
71.5,9.5,0,1,9,0,0,5,1,0,0,0,0,0,0,0,3,0,0,0,0,0,0,0,0,873,3600,,,,0,0,25,0.980647,,,,,,,,10.1002/1521-396X(200202)189:3<877::AID-PSSA877>3.0.CO;2-G
72.5,13.5,0,0,9,0,0,1,1,0,0,0,0,0,0,0,3,0,0,0,0,0,0,0,0,728,3600,,,,0,0,25,0.724293,,,,,,,,10.1002/1521-396X(200202)189:3<877::AID-PSSA877>3.0.CO;2-G
73.5,13.5,0,0,7,0,0,2,1,0,0,0,0,0,0,0,3,0,0,0,0,0,0,0,0,813,3600,,,,0,0,25,0.355968,,,,,,,,10.1002/1521-396X(200202)189:3<877::AID-PSSA877>3.0.CO;2-G
73.5,13.5,0,0,9,0,0,0,1,0,0,0,0,0,0,0,3,0,0,0,0,0,0,0,0,773,3600,,,,0,0,25,0.163039,,,,,,,,10.1002/1521-396X(200202)189:3<877::AID-PSSA877>3.0.CO;2-G
73,11,0,0,9,0,4,0,0,0,0,0,0,0,0,0,3,0,0,0,0,0,0,0,0,848,3600,,785,965,0,0,25,1.76507,,,,,,,,10.1016/0921-5093(94)90259-3
73.5,13.5,0,0,9,0,0,0,1,0,0,0,0,1,0,0,2,0,0,0,0,0,0,0,0,833,1800,,,,0,0,20,0.9,,274.818,,94814.8,,1.23958,12.0096,10.1016/j.jallcom.2006.12.133
73.5,15.5,0,0,7,0,0,0,1,0,0,0,0,0,0,0,3,0,0,0,0,0,0,0,0,823,3600,,,,0,1,14,0.65,,161.366,,,,1.18,,10.1016/j.pnsc.2017.09.002
75.3,13,0,0,9,0,0,0,1,0,0,0,0,0,0,1.7,0,0,0,0,0,0,0,0,0,499,3600,,725,845,0,0,25,5.57001,,,2.00877,,,,,10.1016/S0304-8853(01)00349-3
75.3,13,0,0,9,0,0,0,1,0,0,0,0,0,0,1.7,0,0,0,0,0,0,0,0,0,698,3600,,725,845,0,0,25,4.78143,,,1.98851,,,,,10.1016/S0304-8853(01)00349-3
75.3,13,0,0,9,0,0,0,1,0,0,0,0,0,0,1.7,0,0,0,0,0,0,0,0,0,748,3600,,725,845,0,0,25,3.9508,,,1.98438,,,,,10.1016/S0304-8853(01)00349-3
73.5,15.5,0,0,5,2,0,0,1,0,0,0,0,0,0,0,3,0,0,0,0,0,0,0,0,813,1800,,823,924,0,0,20,3.02394,,,,,,0.78,,10.1016/S0921-4526(02)01741-6
73.5,13.5,0,0,9,0,0,0,1,0,0,0,0,0,0,0,3,0,0,0,0,0,0,0,0,573,3600,,,,0,0,21,,,,,,26.8155,,,10.1016/S0921-5093(97)80078-0
73.5,13.5,0,0,9,0,0,0,1,0,0,0,0,0,0,0,3,0,0,0,0,0,0,0,0,723,3600,,,,0,0,21,,,,,,25.7897,,,10.1016/S0921-5093(97)80078-0
73.5,13.5,0,0,9,0,0,0,1,0,0,0,0,0,0,0,3,0,0,0,0,0,0,0,0,773,3600,,,,0,0,21,,,,,,12.299,,,10.1016/S0921-5093(97)80078-0
73.5,13.5,0,0,9,0,0,0,1,0,0,0,0,0,0,0,3,0,0,0,0,0,0,0,0,823,12000,,,,0,0,21,,,,,,2.46062,,,10.1016/S0921-5093(97)80078-0
83.3,4,0,0,12,0,0,0,0.7,0,0,0,0,0,0,0,0,0,0,0,0,0,0,0,0,773,600,,,,0,0,20,1856.98,,,,,,,,10.1063/1.30586
84.3,4,0,0,8,3,0,0,0.7,0,0,0,0,0,0,0,0,0,0,0,0,0,0,0,0,698,600,,,,0,0,20,114.331,,,,,,,,10.1063/1.30586
83.3,4,0,0,8,4,0,0,0.7,0,0,0,0,0,0,0,0,0,0,0,0,0,0,0,0,723,600,,,,0,0,20,7.98774,,,,,,,,10.1063/1.30586
73,13.5,0,0,9,0,0,0,1.5,0,0,0,0,0,0,0,3,0,0,0,0,0,0,0,0,833,3600,,,,0,0,17.5,0.6899,,314.68,,1.03E+05,,1.225,,10.1063/1.342149
73.5,13.5,0,0,9,0,0,0,1,0,0,0,0,0,0,0,3,0,0,0,0,0,0,0,0,843,3600,,,,0,0,17.5,,,,,,2.11111,,,10.1063/1.342149
86,1,0,0,8,4,0,0,1,0,0,0,0,0,0,0,0,0,0,0,0,0,0,0,0,733,600,,,,0,0,20,2.8,1006,,0.67,24000,2.4,1.85,19,10.1063/1.35352
86,2,0,0,8,4,0,0,0,0,0,0,0,0,0,0,0,0,0,0,0,0,0,0,0,773,600,,,,0,0,20,4588.34,,,,,,,,10.1063/1.35352
86,2,0,0,8,4,0,0,0,0,0,0,0,0,0,0,0,0,0,0,0,0,0,0,0,743,600,,,,0,0,20,1997.99,,,,,,,,10.1063/1.35352
86,2,0,0,12,0,0,0,0,0,0,0,0,0,0,0,0,0,0,0,0,0,0,0,0,713,600,,,,0,0,20,778.559,,,,,,,,10.1063/1.35352
86,2,0,0,12,0,0,0,0,0,0,0,0,0,0,0,0,0,0,0,0,0,0,0,0,688,600,,,,0,0,20,444.162,,,,,,,,10.1063/1.35352
85,2,0,0,12,0,0,0,1,0,0,0,0,0,0,0,0,0,0,0,0,0,0,0,0,703,600,,,,0,0,20,208.514,,,,,,,,10.1063/1.35352
85,2,0,0,8,4,0,0,1,0,0,0,0,0,0,0,0,0,0,0,0,0,0,0,0,753,600,,,,0,0,20,94.8012,,,0.67351,,,1.42251,,10.1063/1.35352
85,2,0,0,8,4,0,0,1,0,0,0,0,0,0,0,0,0,0,0,0,0,0,0,0,748,600,,,,0,0,20,18.0242,,,0.699338,,,1.58476,,10.1063/1.35352
85,2,0,0,8,4,0,0,1,0,0,0,0,0,0,0,0,0,0,0,0,0,0,0,0,723,600,,,,0,0,20,8.96966,,,0.729139,,,1.78224,,10.1063/1.35352
85,2,0,0,8,4,0,0,1,0,0,0,0,0,0,0,0,0,0,0,0,0,0,0,0,673,600,,,,0,0,20,5.75465,,,0.75894,,,1.55243,,10.1063/1.35352
84,4,0,0,8,4,0,0,0,0,0,0,0,0,0,0,0,0,0,0,0,0,0,0,0,743,1800,,701,808,0,0,22.5,599.978,,,,,,,,10.1063/1.35353
83.25,4,0,0,8,4,0,0,0.75,0,0,0,0,0,0,0,0,0,0,0,0,0,0,0,0,763,1800,,673,810,0,0,22.5,114.256,,,,,,,,10.1063/1.35353
83.25,4,0,0,8,4,0,0,0.75,0,0,0,0,0,0,0,0,0,0,0,0,0,0,0,0,663,1800,,673,810,0,0,22.5,56.1301,,,,,,,,10.1063/1.35353
82.5,4,0,0,8,4,0,0,1.5,0,0,0,0,0,0,0,0,0,0,0,0,0,0,0,0,663,1800,,666,808,0,0,22.5,44.2897,,,,,,,,10.1063/1.35353
82.75,4,0,0,8,4,0,0,1.25,0,0,0,0,0,0,0,0,0,0,0,0,0,0,0,0,743,1800,,671,810,0,0,22.5,30.5866,,,,,,,,10.1063/1.35353
82.75,4,0,0,8,4,0,0,1.25,0,0,0,0,0,0,0,0,0,0,0,0,0,0,0,0,703,1800,,671,810,0,0,22.5,13.7488,,,,,,,,10.1063/1.35353
83,4,0,0,8,4,0,0,1,0,0,0,0,0,0,0,0,0,0,0,0,0,0,0,0,723,1800,,673,808,0,0,22.5,2.32281,,,,,,1.82089,16.5448,10.1063/1.35353
85,2,0,0,8,4,0,0,1,0,0,0,0,0,0,0,0,0,0,0,0,0,0,0,0,393,300,,,,0,0,20,8.78093,,,,,,,,10.1063/1.48682
85,2,0,0,8,4,0,0,1,0,0,0,0,0,0,0,0,0,0,0,0,0,0,0,0,698,300,,,,0,0,20,6.26043,,,,,,,16.0764,10.1063/1.48682
74.5,13.5,0,0,9,0,0,0,0,0,0,0,0,0,0,0,3,0,0,0,0,0,0,0,0,843,3600,,,,0,0,20,586.76,,,,68.7103,,,,10.1109/20.1044
74.5,13.5,0,0,9,0,0,0,0,0,0,0,0,0,0,0,3,0,0,0,0,0,0,0,0,883,3600,,,,0,0,20,59.01,,,,537.5047,,,,10.1109/20.1044
73.5,13.5,0,0,9,0,0,0,1,0,0,0,0,0,0,0,3,0,0,0,0,0,0,0,0,863,3600,,,,0,0,20,74.41,,,,4445.159,,,,10.1109/20.1044
73.5,13.5,0,0,9,0,0,0,1,0,0,0,0,0,0,0,3,0,0,0,0,0,0,0,0,843,3600,,,,0,0,20,3.52,,,,27328.75,,,,10.1109/20.1044
73.5,13.5,0,0,9,0,0,0,1,0,0,0,0,0,0,0,3,0,0,0,0,0,0,0,0,813,3600,,,,0,0,20,0.81823,,,,82094.7,,,11.2085,10.1109/20.1044
73.5,13.5,0,0,9,0,0,0,1,0,0,0,0,0,0,0,3,0,0,0,0,0,0,0,0,1173,3600,,,,0,0,20,1599.35,,,,,,,,10.1109/20.1044
74.5,13.5,0,0,9,0,0,0,0,0,0,0,0,0,0,0,3,0,0,0,0,0,0,0,0,903,3600,,,,0,0,20,96.66,,,,,,,,10.1109/20.1044
73.5,13.5,0,0,9,0,0,0,1,0,0,0,0,0,0,0,3,0,0,0,0,0,0,0,0,773,3600,,,,0,0,30,,,,,,1.82E+01,1.2757,,10.1109/20.8258
73.5,13.5,0,0,9,0,0,0,1,0,0,0,0,0,0,0,3,0,0,0,0,0,0,0,0,673,3600,,,,0,0,,,,,,5.85E+04,,,,10.1109/TJMJ.1990.4564397
73.5,13.5,0,0,9,0,0,0,1,0,0,0,0,0,0,0,3,0,0,0,0,0,0,0,0,373,4.80E+05,,,,0,0,,,,,,8.53E+04,,,,10.1109/TJMJ.1990.4564397
73.5,13.5,0,0,9,0,0,0,1,0,0,0,0,0,0,0,3,0,0,0,0,0,0,0,0,823,3600,,,,1,0,18.1493,,,937.6053,,,,,,10.1109/TJMJ.1990.4564397
73.5,13.5,0,0,9,0,0,0,1,0,0,0,0,0,0,0,3,0,0,0,0,0,0,0,0,823,3600,,,,0,1,22.7095,,,480.4297,,,,,,10.1109/TJMJ.1990.4564397
73.5,13.5,0,0,9,0,0,0,1,0,0,0,0,0,0,0,3,0,0,0,0,0,0,0,0,823,3600,,,,0,1,17.0734,,,301.895,,,,,,10.1109/TJMJ.1990.4564397
73.5,13.5,0,0,9,0,0,0,1,0,0,0,0,0,0,0,3,0,0,0,0,0,0,0,0,823,3600,,,,0,1,11.023,,,204.3477,,,,,,10.1109/TJMJ.1990.4564397
83.7,0,0,0,14.8,0,0,0,1.5,0,0,0,0,0,0,0,0,0,0,0,0,0,0,0,0,583,3600,,579,728,0,0,21,14.5872,,,,,,1.67287,,10.1143/JJAP.46.L477
82.7,2,0,0,14,0,0,0,1.3,0,0,0,0,0,0,0,0,0,0,0,0,0,0,0,0,663,3600,,,,0,0,21,6.5,,,,,,1.85,,10.1143/JJAP.46.L477
73.5,13.5,0,0,9,0,0,0,1,0,0,0,0,0,0,0,3,0,0,0,0,0,0,0,0,900,3600,,,,0,0,18,,,,,2.00E+02,,,,10.1557/PROC-232-183
74.5,13.5,0,0,9,0,0,0,0,0,0,0,0,0,0,0,3,0,0,0,0,0,0,0,0,813,3600,,,,0,0,18,,,,,5.89E+03,,,,10.1557/PROC-232-183
73.5,13.5,0,0,9,0,0,0,1,0,0,0,0,0,0,0,3,0,0,0,0,0,0,0,0,743,15000,,,,0,0,18,,,,,1.10E+04,,,,10.1557/PROC-232-183
73.5,13.5,0,0,9,0,0,0,1,0,0,0,0,0,0,0,3,0,0,0,0,0,0,0,0,743,3600,,,,0,0,18,,,,,1.40E+04,,,,10.1557/PROC-232-183
73.5,13.5,0,0,9,0,0,0,1,0,0,0,0,0,0,0,3,0,0,0,0,0,0,0,0,723,3600,,,,0,0,18,,,,,1.80E+04,,,,10.1557/PROC-232-183
73.5,13.5,0,0,9,0,0,0,1,0,0,0,0,0,0,0,3,0,0,0,0,0,0,0,0,773,1.80E+05,,,,0,0,18,,,,,2.40E+04,,,,10.1557/PROC-232-183
73,13.5,0,0,9,0,0,0,1.5,0,0,0,0,0,0,0,3,0,0,0,0,0,0,0,0,793,3600,,,,0,0,18,,,,,38043,,,,10.1557/PROC-232-183
73,13.5,0,0,9,0,0,0,1.5,0,0,0,0,0,0,0,3,0,0,0,0,0,0,0,0,803,3600,,,,0,0,18,,,,,52137,,,,10.1557/PROC-232-183
74,13.5,0,0,9,0,0,0,0.5,0,0,0,0,0,0,0,3,0,0,0,0,0,0,0,0,823,3600,,,,0,0,18,,,,,60217,,,,10.1557/PROC-232-183
73.5,13.5,0,0,9,0,0,0,1,0,0,0,0,0,0,0,3,0,0,0,0,0,0,0,0,803,3600,,,,0,0,18,,,,,68294,,,,10.1557/PROC-232-183
73.5,13.5,0,0,9,0,0,0,1,0,0,0,0,0,0,0,3,0,0,0,0,0,0,0,0,823,1800,,,,0,0,18,,,,,8.20E+04,,,,10.1557/PROC-232-183
73.5,13.5,0,0,9,0,0,0,1,0,0,0,0,0,0,0,3,0,0,0,0,0,0,0,0,843,3600,,,,0,0,18,,,,,104260,,,,10.1557/PROC-232-183
73.5,13.5,0,0,9,0,0,0,1,0,0,0,0,0,0,0,3,0,0,0,0,0,0,0,0,853,3600,,,,0,0,18,,,,,114700,,,,10.1557/PROC-232-183
73.5,13.5,0,0,9,0,0,0,0,0,1,0,0,0,0,0,0,0,0,3,0,0,0,0,0,778,3600,,,,0,0,,18.0468,,,,147.7136,,,,10.2320/matertrans1989.30.947
73.5,13.5,0,0,9,0,0,0,1,0,0,0,0,0,0,0,3,0,0,0,0,0,0,0,0,878,3600,,,,0,0,,1904.19,,,,,,,,10.2320/matertrans1989.30.947
73.5,13.5,0,0,9,0,0,0,0,0,1,0,0,0,0,0,0,0,3,0,0,0,0,0,0,728,3600,,,,0,0,,157.2306,,,,,,,,10.2320/matertrans1989.30.947
73.5,13.5,0,0,9,0,0,0,0,0,1,0,0,3,0,0,0,0,0,0,0,0,0,0,0,880,3600,,,,0,0,,35.4874,,,,,,,,10.2320/matertrans1989.30.947
73.5,13.5,0,0,9,0,0,0,1,0,0,0,0,0,0,0,3,0,0,0,0,0,0,0,0,778,3600,,,,0,0,,13.0548,,,,,,,,10.2320/matertrans1989.30.947
73.5,13.5,0,0,9,0,0,0,0,0,1,0,0,3,0,0,0,0,0,0,0,0,0,0,0,778,3600,,,,0,0,,4.5968,,,,,,,,10.2320/matertrans1989.30.947
73.5,17.5,0,0,5,0,0,0,1,0,0,0,0,0,0,0,3,0,0,0,0,0,0,0,0,813,3600,,,,0,0,23,,,,,,,1.19639,,10.4028/www.scientific.net/JMNM.1.135
73.5,13.5,0,0,9,0,0,0,1,0,0,0,0,0,0,0,3,0,0,0,0,0,0,0,0,753,3600,,,,0,0,23,,,,,,2.99E+01,,,10.4028/www.scientific.net/JMNM.1.135
75.5,10.5,0,0,10,0,0,0,1,0,0,0,0,0,0,0,3,0,0,0,0,0,0,0,0,773,3600,,,,0,0,23,,,,,,5.46804,,,10.4028/www.scientific.net/JMNM.1.135
72.5,18.5,0,0,5,0,0,0,1,0,0,0,0,0,0,0,3,0,0,0,0,0,0,0,0,773,3600,,,,0,0,23,,,,,,-2.49853,,,10.4028/www.scientific.net/JMNM.1.135
73.5,13.5,0,0,9,0,0,0,1,0,0,0,0,0,0,0,3,0,0,0,0,0,0,0,0,803,3600,,,,0,0,23,,,,,,6.44E+00,,,10.4028/www.scientific.net/JMNM.1.135
73.5,13.6,0,0,9.1,0,0,0,0.8,0,0,0,0,0,0,0,0,3,0,0,0,0,0,0,0,813,3600,,,,0,0,19,,,,,,1.80E+00,1.24,,doi:10.1016/j.jmmm.2010.05.025
84,0,0,0,8,0,0,0,1,0,0,0,0,0,0,0,7,0,0,0,0,0,0,0,0,1020,3600,,688,1019,0,0,20,,,,,87.5891,,1.6199,,http://iopscience.iop.org/article/10.1143/JJAP.30.L1729/meta
84,0,0,0,8,0,0,0,1,0,0,0,0,0,0,0,7,0,0,0,0,0,0,0,0,573,3600,,688,1019,0,0,20,,,,,144.371,,0.399635,,http://iopscience.iop.org/article/10.1143/JJAP.30.L1729/meta
82,0,0,0,10,0,0,0,1,0,0,0,7,0,0,0,0,0,0,0,0,0,0,0,0,973,3600,,688,975,0,0,20,,,,,236.879,,1.72433,,http://iopscience.iop.org/article/10.1143/JJAP.30.L1729/meta
82,0,0,0,10,0,0,0,1,0,0,0,0,0,0,0,0,0,0,7,0,0,0,0,0,973,3600,,720,1016,0,0,20,,,,,460.985,,1.47758,,http://iopscience.iop.org/article/10.1143/JJAP.30.L1729/meta
84,0,0,0,8,0,0,0,1,0,0,0,0,0,0,0,7,0,0,0,0,0,0,0,0,673,3600,,688,1019,0,0,20,,,,,536.494,,0.593373,,http://iopscience.iop.org/article/10.1143/JJAP.30.L1729/meta
84,0,0,0,8,0,0,0,1,0,0,0,0,0,0,0,7,0,0,0,0,0,0,0,0,623,3600,,688,1019,0,0,20,,,,,640.048,,0.420747,,http://iopscience.iop.org/article/10.1143/JJAP.30.L1729/meta
82,0,0,0,10,0,0,0,1,0,0,0,0,0,0,0,0,0,0,7,0,0,0,0,0,573,3600,,720,1016,0,0,20,,,,,3186.09,,0.672375,,http://iopscience.iop.org/article/10.1143/JJAP.30.L1729/meta
82,0,0,0,10,0,0,0,1,0,0,0,7,0,0,0,0,0,0,0,0,0,0,0,0,673,3600,,688,975,0,0,20,,,,,3762.19,,1.02194,,http://iopscience.iop.org/article/10.1143/JJAP.30.L1729/meta
82,0,0,0,10,0,0,0,1,0,0,0,0,0,0,0,0,0,0,7,0,0,0,0,0,623,3600,,720,1016,0,0,20,,,,,5064.03,,0.676164,,http://iopscience.iop.org/article/10.1143/JJAP.30.L1729/meta
82,0,0,0,10,0,0,0,1,0,0,0,7,0,0,0,0,0,0,0,0,0,0,0,0,573,3600,,688,975,0,0,20,,,,,5858.8,,0.793586,,http://iopscience.iop.org/article/10.1143/JJAP.30.L1729/meta
82,0,0,0,10,0,0,0,1,0,0,0,0,0,0,0,0,0,0,7,0,0,0,0,0,673,3600,,720,1016,0,0,20,,,,,6434.91,,0.697269,,http://iopscience.iop.org/article/10.1143/JJAP.30.L1729/meta
82,0,0,0,10,0,0,0,1,0,0,0,0,0,0,0,0,0,0,7,0,0,0,0,0,723,3600,,720,1016,0,0,20,,,,,7759.88,,0.995435,,http://iopscience.iop.org/article/10.1143/JJAP.30.L1729/meta
82,0,0,0,10,0,0,0,1,0,0,0,7,0,0,0,0,0,0,0,0,0,0,0,0,623,3600,,688,975,0,0,20,,,,,7828.91,,0.806041,,http://iopscience.iop.org/article/10.1143/JJAP.30.L1729/meta
82,0,0,0,10,0,0,0,1,0,0,0,7,0,0,0,0,0,0,0,0,0,0,0,0,923,3600,,688,975,0,0,20,4.9,,,,11000,,1.55605,,http://iopscience.iop.org/article/10.1143/JJAP.30.L1729/meta
82,0,0,0,10,0,0,0,1,0,0,0,0,0,0,0,0,0,0,7,0,0,0,0,0,923,3600,,720,1016,0,0,20,,,,,11000,,1.46947,,http://iopscience.iop.org/article/10.1143/JJAP.30.L1729/meta
82,0,0,0,10,0,0,0,1,0,0,0,0,0,0,0,0,0,0,7,0,0,0,0,0,773,3600,,720,1016,0,0,20,,,,,11296.8,,1.28927,,http://iopscience.iop.org/article/10.1143/JJAP.30.L1729/meta
82,0,0,0,10,0,0,0,1,0,0,0,0,0,0,0,0,0,0,7,0,0,0,0,0,823,3600,,720,1016,0,0,20,,,,,11515.6,,,,http://iopscience.iop.org/article/10.1143/JJAP.30.L1729/meta
82,0,0,0,10,0,0,0,1,0,0,0,0,0,0,0,0,0,0,7,0,0,0,0,0,873,3600,,720,1016,0,0,20,,,,,12103.1,,1.42238,,http://iopscience.iop.org/article/10.1143/JJAP.30.L1729/meta
84,0,0,0,8,0,0,0,1,0,0,0,0,0,0,0,7,0,0,0,0,0,0,0,0,723,3600,,688,1019,0,0,20,,,,,12183.9,,1.21188,,http://iopscience.iop.org/article/10.1143/JJAP.30.L1729/meta
84,0,0,0,8,0,0,0,1,0,0,0,0,0,0,0,7,0,0,0,0,0,0,0,0,973,3600,,688,1019,0,0,20,8.6,,,,13000,,1.57282,,http://iopscience.iop.org/article/10.1143/JJAP.30.L1729/meta
84,0,0,0,8,0,0,0,1,0,0,0,0,0,0,0,7,0,0,0,0,0,0,0,0,773,3600,,688,1019,0,0,20,,,,,13147.3,,,,http://iopscience.iop.org/article/10.1143/JJAP.30.L1729/meta
82,0,0,0,10,0,0,0,1,0,0,0,7,0,0,0,0,0,0,0,0,0,0,0,0,873,3600,,688,975,0,0,20,,,,,14131,,,,http://iopscience.iop.org/article/10.1143/JJAP.30.L1729/meta
84,0,0,0,8,0,0,0,1,0,0,0,0,0,0,0,7,0,0,0,0,0,0,0,0,923,3600,,688,1019,0,0,20,,,,,14269.1,,,,http://iopscience.iop.org/article/10.1143/JJAP.30.L1729/meta
84,0,0,0,8,0,0,0,1,0,0,0,0,0,0,0,7,0,0,0,0,0,0,0,0,873,3600,,688,1019,0,0,20,,,,,14272.6,,1.55658,,http://iopscience.iop.org/article/10.1143/JJAP.30.L1729/meta
84,0,0,0,8,0,0,0,1,0,0,0,0,0,0,0,7,0,0,0,0,0,0,0,0,823,3600,,688,1019,0,0,20,8.9,,,,16000,,1.48787,,http://iopscience.iop.org/article/10.1143/JJAP.30.L1729/meta
82,0,0,0,10,0,0,0,1,0,0,0,7,0,0,0,0,0,0,0,0,0,0,0,0,823,3600,,688,975,0,0,20,,,,,16446,,1.47487,,http://iopscience.iop.org/article/10.1143/JJAP.30.L1729/meta
82,0,0,0,10,0,0,0,1,0,0,0,7,0,0,0,0,0,0,0,0,0,0,0,0,773,3600,,688,975,0,0,20,,,,,18716,,,,http://iopscience.iop.org/article/10.1143/JJAP.30.L1729/meta
82,0,0,0,10,0,0,0,1,0,0,0,7,0,0,0,0,0,0,0,0,0,0,0,0,723,3600,,688,975,0,0,20,3.5,,,,20000,,1.38504,,http://iopscience.iop.org/article/10.1143/JJAP.30.L1729/meta
66.5,13.5,0,0,9,0,0,0,1,0,0,0,0,0,0,0,3,0,0,0,0,7,0,0,0,823,3600,,,,0,0,,42,,,,,,0.9,,http://phys.ipme.nw.ru/e-journals/RAMS/no_61808/pavlik.pdf
68.5,13.5,0,0,9,0,0,0,1,0,0,0,0,0,0,0,3,0,0,0,0,5,0,0,0,823,3600,,,,0,0,,35,,,,,,1.1,,http://phys.ipme.nw.ru/e-journals/RAMS/no_61808/pavlik.pdf
70.5,13.5,0,0,9,0,0,0,1,0,0,0,0,0,0,0,3,0,0,0,0,3,0,0,0,823,3600,,,,0,0,,33,,,,,,1.2,,http://phys.ipme.nw.ru/e-journals/RAMS/no_61808/pavlik.pdf
78,0.5,9,0,0,9,0,3,0.5,0,0,0,0,0,0,0,0,0,0,0,0,0,0,0,0,623,18000,,,,0,0,,11.1111,,,,1644.2,,,,https://aip.scitation.org/doi/abs/10.1063/1.350008
87,0,0,0,5,0,0,0,0,1,0,0,0,0,0,7,0,0,0,0,0,0,0,0,0,473,3600,788,812,,0,0,30,2.37629,,,3.30494,,4.07042,0.446575,,https://aip.scitation.org/doi/abs/10.1063/1.359284
73.5,13.5,0,0,9,0,0,0,1,0,0,0,0,0,0,0,2,1,0,0,0,0,0,0,0,847,3600,,813,918,0,0,20.5,3.45679,,,,,,1.20415,,https://doi.org/10.1002/pssa.201700074
82,0,0,0,10,8,0,0,0,0,0,0,0,0,0,0,0,0,0,0,0,0,0,0,0,723,600,,,,0,0,20,2540.14,,,,,,1.7244,,https://doi.org/10.1016/j.jallcom.2010.12.104
84.8,0,0,0,8,6,0,0,1.2,0,0,0,0,0,0,0,0,0,0,0,0,0,0,0,0,673,600,,663,796,0,0,20,10,,,,,,1.77963,,https://doi.org/10.1016/j.jallcom.2010.12.104
82,0,0,0,10,8,0,0,0,0,0,0,0,0,0,0,0,0,0,0,0,0,0,0,0,648,600,,,,0,0,20,1.31042,,,,,,1.597,,https://doi.org/10.1016/j.jallcom.2010.12.104
73.5,13.5,0,0,9,0,0,0,0,0,1,0,0,0,0,0,3,0,0,0,0,0,0,0,0,803,5400,,,,0,0,25,0.022,,,,,,,,https://doi.org/10.1016/j.jmmm.2006.01.057
83,2,0,0,8,4,0,0,1,0,0,0,0,0,0,0,0,2,0,0,0,0,0,0,0,788,600,,678,1465,0,0,19.5,16.2088,,,,,,,,https://doi.org/10.1016/j.jnoncrysol.2017.12.003
84,2,0,0,8,4,0,0,1,0,0,0,0,0,0,0,0,1,0,0,0,0,0,0,0,683,600,,668,1352,0,0,19.5,8.19021,,,,,,,,https://doi.org/10.1016/j.jnoncrysol.2017.12.003
83,2,0,0,8,4,0,0,1,0,0,0,0,0,0,0,0,2,0,0,0,0,0,0,0,698,600,,678,1378,0,0,19.5,5.41581,,,,,,,,https://doi.org/10.1016/j.jnoncrysol.2017.12.003
73.5,3.5,0,0,9,0,0,10,1,0,0,0,0,0,0,0,3,0,0,0,0,0,0,0,0,573,3600,,766,966,0,0,,6.93668,,,,,,0.872936,,https://doi.org/10.1016/j.physb.2004.09.050
73.5,7.5,0,0,9,0,0,6,1,0,0,0,0,0,0,0,3,0,0,0,0,0,0,0,0,723,3600,,799,984,0,0,,1.19438,,,,,,,,https://doi.org/10.1016/j.physb.2004.09.050
72.5,13.5,0,0,9,0,0,0,1,0,0,0,0,0,0,0,3,1,0,0,0,0,0,0,0,998,3600,,825,969,0,0,25,1346.85,,,,,,,,https://doi.org/10.1016/S0022-3093(01)00598-1
68.5,13.5,0,0,9,0,0,0,1,0,0,0,0,0,0,0,3,5,0,0,0,0,0,0,0,898,3600,,867,991,0,0,25,4.89515,,,,,,,,https://doi.org/10.1016/S0022-3093(01)00598-1
[...]
73.5,7.5,0,0,9,0,0,6,1,0,0,0,0,0,0,0,3,0,0,0,0,0,0,0,0,813,3600,,766,958,0,0,,0.435233,,,,,,,,https://www.sciencedirect.com/science/article/pii/S0921452604009469?via%3Dihub
83.44,3.89,0,0,7.92,4.06,0,0,0.69,0,0,0,0,0,0,0,0,0,0,0,0,0,0,0,0,748,600,,685,827,0,0,12,788.955,,,,1660.22,,,18.0183,https://www.sciencedirect.com/science/article/pii/S0925838816313470
84.32,3.87,0,0,7.59,4.16,0,0,0,0.05,0,0,0,0,0,0,0,0,0,0,0,0,0,0,0,773,600,,704,821,0,0,12,1826.46,,,,2065.31,,,39.3211,https://www.sciencedirect.com/science/article/pii/S0925838816313470
84.32,3.87,0,0,7.59,4.16,0,0,0,0.05,0,0,0,0,0,0,0,0,0,0,0,0,0,0,0,653,600,,704,821,0,0,12,387.164,,,,2077.49,,,47.3578,https://www.sciencedirect.com/science/article/pii/S0925838816313470
84.32,3.87,0,0,7.59,4.16,0,0,0,0.05,0,0,0,0,0,0,0,0,0,0,0,0,0,0,0,673,600,,704,821,0,0,12,321.486,,,,2401.55,,,45.1009,https://www.sciencedirect.com/science/article/pii/S0925838816313470
84.32,3.87,0,0,7.59,4.16,0,0,0,0.05,0,0,0,0,0,0,0,0,0,0,0,0,0,0,0,698,600,,704,821,0,0,12,221.875,,,,2513.13,,,43.1193,https://www.sciencedirect.com/science/article/pii/S0925838816313470
83.47,3.89,0,0,7.88,4.04,0,0,0,0,0.71,0,0,0,0,0,0,0,0,0,0,0,0,0,0,773,600,,710,824,0,0,12,2108.49,,,,2831.64,,,36.2385,https://www.sciencedirect.com/science/article/pii/S0925838816313470
83.47,3.89,0,0,7.88,4.04,0,0,0,0,0.71,0,0,0,0,0,0,0,0,0,0,0,0,0,0,698,600,,710,824,0,0,12,200.246,,,,3344.71,,,39.7064,https://www.sciencedirect.com/science/article/pii/S0925838816313470
83.47,3.89,0,0,7.88,4.04,0,0,0,0,0.71,0,0,0,0,0,0,0,0,0,0,0,0,0,0,673,600,,710,824,0,0,12,261.863,,,,3510.3,,,44.9358,https://www.sciencedirect.com/science/article/pii/S0925838816313470
84.32,3.87,0,0,7.59,4.16,0,0,0,0.05,0,0,0,0,0,0,0,0,0,0,0,0,0,0,0,633,600,,704,821,0,0,12,315.764,,,,3612.17,,,35.7982,https://www.sciencedirect.com/science/article/pii/S0925838816313470
84.32,3.87,0,0,7.59,4.16,0,0,0,0.05,0,0,0,0,0,0,0,0,0,0,0,0,0,0,0,748,600,,704,821,0,0,12,97.3567,,,,3616.77,,,38.1651,https://www.sciencedirect.com/science/article/pii/S0925838816313470
83.47,3.89,0,0,7.88,4.04,0,0,0,0,0.71,0,0,0,0,0,0,0,0,0,0,0,0,0,0,653,600,,710,824,0,0,12,367.81,,,,3707.98,,,44.9358,https://www.sciencedirect.com/science/article/pii/S0925838816313470
83.47,3.89,0,0,7.88,4.04,0,0,0,0,0.71,0,0,0,0,0,0,0,0,0,0,0,0,0,0,723,600,,710,824,0,0,12,95.5333,,,,4467.15,,,40.0367,https://www.sciencedirect.com/science/article/pii/S0925838816313470
83.44,3.89,0,0,7.92,4.06,0,0,0.69,0,0,0,0,0,0,0,0,0,0,0,0,0,0,0,0,633,600,,685,827,0,0,12,22.3946,,,,4883.91,,,34.9174,https://www.sciencedirect.com/science/article/pii/S0925838816313470
83.47,3.89,0,0,7.88,4.04,0,0,0,0,0.71,0,0,0,0,0,0,0,0,0,0,0,0,0,0,748,600,,710,824,0,0,12,77.691,,,,5654.82,,,38.6055,https://www.sciencedirect.com/science/article/pii/S0925838816313470
83.44,3.89,0,0,7.92,4.06,0,0,0.69,0,0,0,0,0,0,0,0,0,0,0,0,0,0,0,0,653,600,,685,827,0,0,12,15.4608,,,,5794.91,,,31.6147,https://www.sciencedirect.com/science/article/pii/S0925838816313470
83.44,3.89,0,0,7.92,4.06,0,0,0.69,0,0,0,0,0,0,0,0,0,0,0,0,0,0,0,0,613,600,,685,827,0,0,12,4.3452,,,,7266.37,,,20.2202,https://www.sciencedirect.com/science/article/pii/S0925838816313470
84.32,3.87,0,0,7.59,4.16,0,0,0,0.05,0,0,0,0,0,0,0,0,0,0,0,0,0,0,0,613,600,,704,821,0,0,12,8.2069,,,,8505.5,,,25.2294,https://www.sciencedirect.com/science/article/pii/S0925838816313470
83.44,3.89,0,0,7.92,4.06,0,0,0.69,0,0,0,0,0,0,0,0,0,0,0,0,0,0,0,0,673,600,,685,827,0,0,12,10.0366,,,,9249.38,,,28.5872,https://www.sciencedirect.com/science/article/pii/S0925838816313470
83.47,3.89,0,0,7.88,4.04,0,0,0,0,0.71,0,0,0,0,0,0,0,0,0,0,0,0,0,0,633,600,,710,824,0,0,12,12.6098,,,,9383.91,,,25.3945,https://www.sciencedirect.com/science/article/pii/S0925838816313470
83.47,3.89,0,0,7.88,4.04,0,0,0,0,0.71,0,0,0,0,0,0,0,0,0,0,0,0,0,0,613,600,,710,824,0,0,12,6.68497,,,,10706.6,,,15.2661,https://www.sciencedirect.com/science/article/pii/S0925838816313470
83.44,3.89,0,0,7.92,4.06,0,0,0.69,0,0,0,0,0,0,0,0,0,0,0,0,0,0,0,0,723,600,,685,827,0,0,12,4.58848,,,,10972.6,,,14.6606,https://www.sciencedirect.com/science/article/pii/S0925838816313470
83.44,3.89,0,0,7.92,4.06,0,0,0.69,0,0,0,0,0,0,0,0,0,0,0,0,0,0,0,0,698,600,,685,827,0,0,12,6.71692,,,,11040.3,,,26.1101,https://www.sciencedirect.com/science/article/pii/S0925838816313470
84.32,3.87,0,0,7.59,4.16,0,0,0,0.05,0,0,0,0,0,0,0,0,0,0,0,0,0,0,0,723,600,,704,821,0,0,12,124.729,,,,,,,42.6239,https://www.sciencedirect.com/science/article/pii/S0925838816313470
81.7,4,0,0,13,0,0,0,1.3,0,0,0,0,0,0,0,0,0,0,0,0,0,0,0,0,653,3600,,695,799,0,0,20,398.107,,,,,,1.72045,,https://www.sciencedirect.com/science/article/pii/S0925838817321278
81.7,4,0,0,13,0,0,0,1.3,0,0,0,0,0,0,0,0,0,0,0,0,0,0,0,0,668,3600,,695,799,0,0,20,382.48,,,,,,1.73047,,https://www.sciencedirect.com/science/article/pii/S0925838817321278
81.7,4,0,0,13,0,0,0,1.3,0,0,0,0,0,0,0,0,0,0,0,0,0,0,0,0,683,3600,,695,799,0,0,20,372.404,,,,,,1.7405,,https://www.sciencedirect.com/science/article/pii/S0925838817321278
81.7,4,0,0,13,0,0,0,1.3,0,0,0,0,0,0,0,0,0,0,0,0,0,0,0,0,698,3600,,695,799,0,0,20,372.404,,,,,,1.74525,,https://www.sciencedirect.com/science/article/pii/S0925838817321278
81.7,4,0,0,13,0,0,0,1.3,0,0,0,0,0,0,0,0,0,0,0,0,0,0,0,0,723,3600,,695,799,0,0,20,372.404,,,,,,1.75053,,https://www.sciencedirect.com/science/article/pii/S0925838817321278
81.5,4,0,0,13,0,0,0,1.5,0,0,0,0,0,0,0,0,0,0,0,0,0,0,0,0,653,3600,,672,798,0,0,20,242.945,,,,,,1.72995,,https://www.sciencedirect.com/science/article/pii/S0925838817321278
81.5,4,0,0,13,0,0,0,1.5,0,0,0,0,0,0,0,0,0,0,0,0,0,0,0,0,668,3600,,672,798,0,0,20,218.339,,,,,,1.75,,https://www.sciencedirect.com/science/article/pii/S0925838817321278
81.5,4,0,0,13,0,0,0,1.5,0,0,0,0,0,0,0,0,0,0,0,0,0,0,0,0,683,3600,,672,798,0,0,20,193.623,,,,,,1.75,,https://www.sciencedirect.com/science/article/pii/S0925838817321278
81.5,4,0,0,13,0,0,0,1.5,0,0,0,0,0,0,0,0,0,0,0,0,0,0,0,0,698,3600,,672,798,0,0,20,191.055,,,,,,1.75053,,https://www.sciencedirect.com/science/article/pii/S0925838817321278
81.5,4,0,0,13,0,0,0,1.5,0,0,0,0,0,0,0,0,0,0,0,0,0,0,0,0,723,3600,,672,798,0,0,20,183.556,,,,,,1.75053,,https://www.sciencedirect.com/science/article/pii/S0925838817321278
81,4,0,0,13,0,0,0,2,0,0,0,0,0,0,0,0,0,0,0,0,0,0,0,0,723,3600,,630,791,0,0,20,142.437,,,,,,1.76741,,https://www.sciencedirect.com/science/article/pii/S0925838817321278
81.7,4,0,0,13,0,0,0,1.3,0,0,0,0,0,0,0,0,0,0,0,0,0,0,0,0,638,3600,,695,799,0,0,20,138.685,,,,,,1.66029,,https://www.sciencedirect.com/science/article/pii/S0925838817321278
81.5,4,0,0,13,0,0,0,1.5,0,0,0,0,0,0,0,0,0,0,0,0,0,0,0,0,638,3600,,672,798,0,0,20,79.1682,,,,,,1.67032,,https://www.sciencedirect.com/science/article/pii/S0925838817321278
81.3,4,0,0,13,0,0,0,1.7,0,0,0,0,0,0,0,0,0,0,0,0,0,0,0,0,723,3600,,639,795,0,0,20,37.4898,,,,,,1.7748,,https://www.sciencedirect.com/science/article/pii/S0925838817321278
81,4,0,0,13,0,0,0,2,0,0,0,0,0,0,0,0,0,0,0,0,0,0,0,0,698,3600,,630,791,0,0,20,21.9801,,,,,,1.77058,,https://www.sciencedirect.com/science/article/pii/S0925838817321278
81.3,4,0,0,13,0,0,0,1.7,0,0,0,0,0,0,0,0,0,0,0,0,0,0,0,0,698,3600,,639,795,0,0,20,16.3867,,,,,,1.78008,,https://www.sciencedirect.com/science/article/pii/S0925838817321278
81,4,0,0,13,0,0,0,2,0,0,0,0,0,0,0,0,0,0,0,0,0,0,0,0,683,3600,,630,791,0,0,20,12.5473,,,,,,1.76953,,https://www.sciencedirect.com/science/article/pii/S0925838817321278
81,4,0,0,13,0,0,0,2,0,0,0,0,0,0,0,0,0,0,0,0,0,0,0,0,668,3600,,630,791,0,0,20,10.8338,,,,,,1.76003,,https://www.sciencedirect.com/science/article/pii/S0925838817321278
81.3,4,0,0,13,0,0,0,1.7,0,0,0,0,0,0,0,0,0,0,0,0,0,0,0,0,638,3600,,639,795,0,0,20,8.40693,,,,,,1.71992,,https://www.sciencedirect.com/science/article/pii/S0925838817321278
81,4,0,0,13,0,0,0,2,0,0,0,0,0,0,0,0,0,0,0,0,0,0,0,0,653,3600,,630,791,0,0,20,8.40693,,,,,,1.73997,,https://www.sciencedirect.com/science/article/pii/S0925838817321278
81.3,4,0,0,13,0,0,0,1.7,0,0,0,0,0,0,0,0,0,0,0,0,0,0,0,0,683,3600,,639,795,0,0,20,7.96983,,,,,,1.77533,,https://www.sciencedirect.com/science/article/pii/S0925838817321278
81.3,4,0,0,13,0,0,0,1.7,0,0,0,0,0,0,0,0,0,0,0,0,0,0,0,0,653,3600,,639,795,0,0,20,7.25888,,,,,,1.75053,,https://www.sciencedirect.com/science/article/pii/S0925838817321278
81.3,4,0,0,13,0,0,0,1.7,0,0,0,0,0,0,0,0,0,0,0,0,0,0,0,0,668,3600,,639,795,0,0,20,7.16263,,,,,,1.77058,,https://www.sciencedirect.com/science/article/pii/S0925838817321278
81,4,0,0,13,0,0,0,2,0,0,0,0,0,0,0,0,0,0,0,0,0,0,0,0,638,3600,,630,791,0,0,20,5.55812,,,,,,1.70989,,https://www.sciencedirect.com/science/article/pii/S0925838817321278